Channel Wavelength(nm) Current BackGround Spectrum1 
0 443.86 967 115 967 
1 444.42 981 130 981 
2 444.98 981 103 981 
3 445.55 1033 129 1033 
4 446.11 1032 119 1032 
5 446.67 1062 131 1062 
6 447.23 1094 119 1094 
7 447.79 1129 129 1129 
8 448.35 1132 124 1132 
9 448.92 1196 129 1196 
10 449.48 1211 116 1211 
11 450.04 1208 135 1208 
12 450.6 1260 114 1260 
13 451.16 1298 130 1298 
14 451.72 1310 118 1310 
15 452.29 1408 128 1408 
16 452.85 1374 114 1374 
17 453.41 1416 120 1416 
18 453.97 1463 119 1463 
19 454.53 1487 130 1487 
20 455.09 1509 111 1509 
21 455.66 1552 126 1552 
22 456.22 1612 112 1612 
23 456.78 1628 124 1628 
24 457.34 1637 112 1637 
25 457.9 1659 126 1659 
26 458.47 1710 117 1710 
27 459.03 1772 127 1772 
28 459.59 1817 124 1817 
29 460.15 1867 130 1867 
30 460.71 1887 121 1887 
31 461.27 1947 133 1947 
32 461.84 1996 110 1996 
33 462.4 2019 132 2019 
34 462.96 2065 120 2065 
35 463.52 2115 132 2115 
36 464.08 2144 112 2144 
37 464.64 2205 130 2205 
38 465.21 2294 113 2294 
39 465.77 2294 130 2294 
40 466.33 2355 118 2355 
41 466.89 2414 133 2414 
42 467.45 2416 118 2416 
43 468.01 2508 129 2508 
44 468.58 2548 116 2548 
45 469.14 2634 128 2634 
46 469.7 2673 115 2673 
47 470.26 2746 136 2746 
48 470.82 2776 118 2776 
49 471.38 2839 122 2839 
50 471.95 2901 113 2901 
51 472.51 2925 130 2925 
52 473.07 3018 109 3018 
53 473.63 3078 123 3078 
54 474.19 3119 121 3119 
55 474.76 3215 118 3215 
56 475.32 3257 118 3257 
57 475.88 3347 116 3347 
58 476.44 3377 110 3377 
59 477 3441 129 3441 
60 477.56 3491 116 3491 
61 478.13 3543 126 3543 
62 478.69 3609 106 3609 
63 479.25 3685 119 3685 
64 479.81 3707 110 3707 
65 480.37 3794 124 3794 
66 480.93 3854 113 3854 
67 481.5 3904 128 3904 
68 482.06 3967 116 3967 
69 482.62 4020 127 4020 
70 483.18 4076 114 4076 
71 483.74 4129 129 4129 
72 484.3 4214 110 4214 
73 484.87 4268 118 4268 
74 485.43 4325 108 4325 
75 485.99 4367 123 4367 
76 486.55 4477 109 4477 
77 487.11 4475 124 4475 
78 487.67 4571 124 4571 
79 488.24 4622 136 4622 
80 488.8 4696 117 4696 
81 489.36 4752 128 4752 
82 489.92 4804 118 4804 
83 490.48 4845 126 4845 
84 491.05 4919 126 4919 
85 491.61 4955 127 4955 
86 492.17 4967 120 4967 
87 492.73 5048 132 5048 
88 493.29 5099 109 5099 
89 493.85 5141 128 5141 
90 494.42 5199 111 5199 
91 494.98 5212 130 5212 
92 495.54 5289 112 5289 
93 496.1 5333 130 5333 
94 496.66 5379 114 5379 
95 497.22 5418 134 5418 
96 497.78 5491 118 5491 
97 498.35 5490 131 5490 
98 498.91 5545 114 5545 
99 499.47 5600 136 5600 
100 500.03 5645 114 5645 
101 500.59 5645 132 5645 
102 501.15 5684 116 5684 
103 501.71 5718 131 5718 
104 502.27 5759 115 5759 
105 502.83 5809 139 5809 
106 503.39 5857 114 5857 
107 503.95 5874 132 5874 
108 504.51 5907 117 5907 
109 505.07 5912 136 5912 
110 505.63 6005 112 6005 
111 506.19 5994 134 5994 
112 506.75 6052 109 6052 
113 507.3 6065 132 6065 
114 507.86 6110 119 6110 
115 508.42 6146 129 6146 
116 508.98 6197 122 6197 
117 509.54 6191 134 6191 
118 510.09 6221 117 6221 
119 510.65 6293 131 6293 
120 511.21 6313 124 6313 
121 511.76 6368 127 6368 
122 512.32 6373 116 6373 
123 512.88 6441 126 6441 
124 513.43 6457 111 6457 
125 513.99 6474 134 6474 
126 514.54 6526 108 6526 
127 515.1 6536 127 6536 
128 515.66 6568 118 6568 
129 516.21 6621 131 6621 
130 516.77 6625 119 6625 
131 517.32 6676 122 6676 
132 517.88 6709 120 6709 
133 518.43 6725 134 6725 
134 518.98 6767 109 6767 
135 519.54 6790 133 6790 
136 520.09 6831 119 6831 
137 520.65 6869 135 6869 
138 521.2 6914 116 6914 
139 521.75 6904 131 6904 
140 522.31 6938 110 6938 
141 522.86 6955 135 6955 
142 523.42 7006 116 7006 
143 523.97 7010 140 7010 
144 524.52 7031 120 7031 
145 525.08 7067 138 7067 
146 525.63 7109 115 7109 
147 526.18 7113 126 7113 
148 526.73 7152 115 7152 
149 527.29 7182 125 7182 
150 527.84 7214 115 7214 
151 528.39 7282 128 7282 
152 528.95 7269 118 7269 
153 529.5 7332 132 7332 
154 530.05 7366 117 7366 
155 530.6 7384 132 7384 
156 531.16 7407 116 7407 
157 531.71 7439 134 7439 
158 532.26 7449 114 7449 
159 532.81 7469 140 7469 
160 533.36 7535 118 7535 
161 533.92 7587 131 7587 
162 534.47 7618 118 7618 
163 535.02 7642 126 7642 
164 535.57 7666 121 7666 
165 536.13 7721 140 7721 
166 536.68 7725 114 7725 
167 537.23 7765 133 7765 
168 537.78 7801 112 7801 
169 538.34 7859 128 7859 
170 538.89 7870 121 7870 
171 539.44 7900 125 7900 
172 539.99 7934 120 7934 
173 540.55 7950 129 7950 
174 541.1 8016 117 8016 
175 541.65 8052 137 8052 
176 542.2 8070 116 8070 
177 542.76 8091 129 8091 
178 543.31 8125 107 8125 
179 543.86 8182 132 8182 
180 544.41 8225 122 8225 
181 544.97 8229 130 8229 
182 545.52 8264 132 8264 
183 546.07 8274 125 8274 
184 546.63 8335 114 8335 
185 547.18 8343 132 8343 
186 547.73 8431 118 8431 
187 548.29 8447 126 8447 
188 548.84 8477 115 8477 
189 549.39 8502 134 8502 
190 549.95 8526 120 8526 
191 550.5 8547 130 8547 
192 551.05 8581 114 8581 
193 551.61 8689 124 8689 
194 552.16 8652 127 8652 
195 552.72 8690 130 8690 
196 553.27 8725 116 8725 
197 553.82 8771 133 8771 
198 554.38 8800 114 8800 
199 554.93 8812 133 8812 
200 555.48 8840 118 8840 
201 556.04 8874 129 8874 
202 556.59 8919 115 8919 
203 557.14 8935 132 8935 
204 557.7 8967 118 8967 
205 558.25 8966 129 8966 
206 558.8 9043 122 9043 
207 559.36 8995 134 8995 
208 559.91 9046 120 9046 
209 560.46 9092 129 9092 
210 561.02 9074 116 9074 
211 561.57 9055 128 9055 
212 562.12 9141 117 9141 
213 562.67 9176 129 9176 
214 563.22 9191 117 9191 
215 563.78 9171 133 9171 
216 564.33 9224 117 9224 
217 564.88 9246 136 9246 
218 565.43 9294 110 9294 
219 565.98 9273 139 9273 
220 566.53 9313 119 9313 
221 567.09 9333 135 9333 
222 567.64 9326 120 9326 
223 568.19 9357 142 9357 
224 568.74 9393 113 9393 
225 569.29 9416 126 9416 
226 569.84 9416 120 9416 
227 570.39 9408 129 9408 
228 570.94 9426 116 9426 
229 571.49 9463 135 9463 
230 572.03 9511 121 9511 
231 572.58 9515 119 9515 
232 573.13 9485 123 9485 
233 573.68 9492 127 9492 
234 574.23 9501 121 9501 
235 574.77 9536 129 9536 
236 575.32 9578 125 9578 
237 575.87 9530 142 9530 
238 576.41 9562 119 9562 
239 576.96 9585 130 9585 
240 577.51 9585 119 9585 
241 578.05 9623 146 9623 
242 578.6 9647 119 9647 
243 579.14 9629 121 9629 
244 579.69 9708 115 9708 
245 580.23 9717 128 9717 
246 580.78 9721 110 9721 
247 581.32 9755 130 9755 
248 581.87 9794 113 9794 
249 582.41 9828 133 9828 
250 582.96 9829 114 9829 
251 583.5 9868 134 9868 
252 584.05 9847 120 9847 
253 584.6 9884 127 9884 
254 585.14 9940 115 9940 
255 585.69 9896 134 9896 
256 586.24 9913 122 9913 
257 586.79 9966 135 9966 
258 587.34 10000 118 10000 
259 587.89 10054 134 10054 
260 588.44 10064 116 10064 
261 588.99 10089 137 10089 
262 589.55 10168 123 10168 
263 590.1 10232 127 10232 
264 590.66 10208 124 10208 
265 591.21 10248 132 10248 
266 591.77 10276 114 10276 
267 592.33 10359 134 10359 
268 592.89 10412 122 10412 
269 593.46 10437 130 10437 
270 594.02 10437 114 10437 
271 594.59 10458 137 10458 
272 595.15 10552 115 10552 
273 595.72 10563 131 10563 
274 596.29 10563 121 10563 
275 596.86 10655 136 10655 
276 597.43 10710 124 10710 
277 598 10713 137 10713 
278 598.57 10779 123 10779 
279 599.15 10788 133 10788 
280 599.72 10854 123 10854 
281 600.29 10847 135 10847 
282 600.86 10918 125 10918 
283 601.44 11004 143 11004 
284 602.01 11034 124 11034 
285 602.58 11070 133 11070 
286 603.16 11081 119 11081 
287 603.73 11128 139 11128 
288 604.3 11179 116 11179 
289 604.87 11199 135 11199 
290 605.44 11217 120 11217 
291 606.01 11291 129 11291 
292 606.58 11287 122 11287 
293 607.15 11319 141 11319 
294 607.72 11383 113 11383 
295 608.28 11367 136 11367 
296 608.85 11466 111 11466 
297 609.42 11516 142 11516 
298 609.98 11604 118 11604 
299 610.55 11618 133 11618 
300 611.11 11632 118 11632 
301 611.67 11648 136 11648 
302 612.24 11689 114 11689 
303 612.8 11738 138 11738 
304 613.36 11747 128 11747 
305 613.92 11812 135 11812 
306 614.48 11817 121 11817 
307 615.05 11863 137 11863 
308 615.61 11875 132 11875 
309 616.17 11885 138 11885 
310 616.72 11924 124 11924 
311 617.28 12002 131 12002 
312 617.84 12034 122 12034 
313 618.4 12103 138 12103 
314 618.96 12107 126 12107 
315 619.51 12170 130 12170 
316 620.07 12218 125 12218 
317 620.62 12267 136 12267 
318 621.18 12272 123 12272 
319 621.73 12319 136 12319 
320 622.29 12317 119 12317 
321 622.84 12356 128 12356 
322 623.4 12393 122 12393 
323 623.95 12411 137 12411 
324 624.5 12454 119 12454 
325 625.06 12503 130 12503 
326 625.61 12553 122 12553 
327 626.16 12597 142 12597 
328 626.71 12617 120 12617 
329 627.26 12641 136 12641 
330 627.82 12676 130 12676 
331 628.37 12680 138 12680 
332 628.92 12702 118 12702 
333 629.47 12697 135 12697 
334 630.02 12706 116 12706 
335 630.57 12765 129 12765 
336 631.12 12803 121 12803 
337 631.66 12787 136 12787 
338 632.21 12822 114 12822 
339 632.76 12834 143 12834 
340 633.31 12842 122 12842 
341 633.86 12875 135 12875 
342 634.41 12885 123 12885 
343 634.95 12924 124 12924 
344 635.5 12959 122 12959 
345 636.05 13024 131 13024 
346 636.6 13049 117 13049 
347 637.14 13054 136 13054 
348 637.69 13050 118 13050 
349 638.24 13085 138 13085 
350 638.78 13115 124 13115 
351 639.33 13111 128 13111 
352 639.88 13063 127 13063 
353 640.42 13113 137 13113 
354 640.97 13148 122 13148 
355 641.51 13177 133 13177 
356 642.06 13198 117 13198 
357 642.6 13188 140 13188 
358 643.15 13196 119 13196 
359 643.7 13193 133 13193 
360 644.24 13208 128 13208 
361 644.79 13270 129 13270 
362 645.33 13240 123 13240 
363 645.88 13235 142 13235 
364 646.42 13249 126 13249 
365 646.97 13271 138 13271 
366 647.51 13253 125 13253 
367 648.06 13263 132 13263 
368 648.6 13282 115 13282 
369 649.15 13291 136 13291 
370 649.69 13286 116 13286 
371 650.24 13312 140 13312 
372 650.78 13321 121 13321 
373 651.33 13320 134 13320 
374 651.87 13367 118 13367 
375 652.42 13403 134 13403 
376 652.96 13404 122 13404 
377 653.51 13425 143 13425 
378 654.05 13421 117 13421 
379 654.6 13398 136 13398 
380 655.15 13372 120 13372 
381 655.69 13419 136 13419 
382 656.24 13398 123 13398 
383 656.78 13402 132 13402 
384 657.33 13397 115 13397 
385 657.88 13376 147 13376 
386 658.42 13402 120 13402 
387 658.97 13389 135 13389 
388 659.52 13437 117 13437 
389 660.06 13444 133 13444 
390 660.61 13410 127 13410 
391 661.16 13432 137 13432 
392 661.71 13415 116 13415 
393 662.25 13416 137 13416 
394 662.8 13397 124 13397 
395 663.35 13393 145 13393 
396 663.9 13419 122 13419 
397 664.45 13451 129 13451 
398 665 13430 119 13430 
399 665.55 13404 138 13404 
400 666.1 13401 123 13401 
401 666.64 13357 131 13357 
402 667.2 13336 126 13336 
403 667.75 13353 136 13353 
404 668.3 13296 117 13296 
405 668.85 13338 131 13338 
406 669.4 13295 116 13295 
407 669.95 13250 132 13250 
408 670.5 13193 127 13193 
409 671.05 13144 134 13144 
410 671.61 13055 123 13055 
411 672.16 13108 127 13108 
412 672.71 13082 123 13082 
413 673.26 13060 137 13060 
414 673.82 12999 130 12999 
415 674.37 12936 140 12936 
416 674.92 12961 116 12961 
417 675.48 12904 143 12904 
418 676.03 12860 115 12860 
419 676.59 12828 133 12828 
420 677.14 12797 124 12797 
421 677.69 12763 141 12763 
422 678.25 12762 117 12762 
423 678.8 12749 142 12749 
424 679.36 12704 116 12704 
425 679.91 12732 129 12732 
426 680.47 12762 123 12762 
427 681.02 12712 132 12712 
428 681.58 12646 117 12646 
429 682.13 12632 136 12632 
430 682.69 12575 125 12575 
431 683.24 12577 141 12577 
432 683.8 12562 123 12562 
433 684.35 12557 142 12557 
434 684.91 12572 124 12572 
435 685.46 12583 128 12583 
436 686.02 12579 129 12579 
437 686.57 12553 143 12553 
438 687.13 12540 120 12540 
439 687.68 12511 134 12511 
440 688.24 12467 126 12467 
441 688.79 12489 126 12489 
442 689.35 12477 121 12477 
443 689.9 12453 131 12453 
444 690.46 12446 126 12446 
445 691.01 12448 139 12448 
446 691.56 12428 124 12428 
447 692.12 12419 142 12419 
448 692.67 12420 124 12420 
449 693.23 12421 143 12421 
450 693.78 12378 130 12378 
451 694.33 12359 143 12359 
452 694.89 12336 124 12336 
453 695.44 12346 135 12346 
454 695.99 12354 126 12354 
455 696.54 12303 145 12303 
456 697.1 12258 124 12258 
457 697.65 12296 130 12296 
458 698.2 12298 117 12298 
459 698.75 12278 131 12278 
460 699.3 12268 122 12268 
461 699.85 12221 129 12221 
462 700.4 12225 136 12225 
463 700.95 12211 137 12211 
464 701.5 12154 130 12154 
465 702.05 12126 131 12126 
466 702.6 12091 127 12091 
467 703.15 12083 133 12083 
468 703.7 12103 123 12103 
469 704.25 12110 142 12110 
470 704.8 12087 126 12087 
471 705.35 12084 137 12084 
472 705.9 12052 126 12052 
473 706.45 12010 136 12010 
474 707 12007 126 12007 
475 707.54 11955 140 11955 
476 708.09 11913 127 11913 
477 708.64 11960 138 11960 
478 709.19 11914 121 11914 
479 709.74 11868 133 11868 
480 710.29 11815 126 11815 
481 710.83 11769 141 11769 
482 711.38 11746 129 11746 
483 711.93 11714 141 11714 
484 712.48 11687 124 11687 
485 713.03 11650 131 11650 
486 713.57 11610 124 11610 
487 714.12 11590 137 11590 
488 714.67 11506 130 11506 
489 715.22 11480 136 11480 
490 715.77 11421 132 11421 
491 716.31 11414 135 11414 
492 716.86 11361 123 11361 
493 717.41 11339 134 11339 
494 717.96 11306 120 11306 
495 718.5 11284 136 11284 
496 719.05 11213 132 11213 
497 719.6 11210 140 11210 
498 720.15 11174 134 11174 
499 720.7 11084 147 11084 
500 721.24 11011 124 11011 
501 721.79 10958 132 10958 
502 722.34 10933 119 10933 
503 722.89 10900 143 10900 
504 723.44 10877 117 10877 
505 723.99 10851 132 10851 
506 724.54 10835 126 10835 
507 725.08 10769 144 10769 
508 725.63 10716 119 10716 
509 726.18 10715 136 10715 
510 726.73 10703 128 10703 
511 727.28 10681 134 10681 
512 727.83 10671 120 10671 
513 728.38 10631 129 10631 
514 728.93 10611 129 10611 
515 729.48 10560 133 10560 
516 730.03 10500 120 10500 
517 730.58 10439 137 10439 
518 731.13 10404 130 10404 
519 731.68 10365 134 10365 
520 732.23 10292 126 10292 
521 732.78 10261 136 10261 
522 733.34 10234 123 10234 
523 733.89 10212 138 10212 
524 734.44 10144 135 10144 
525 734.99 10139 142 10139 
526 735.54 10066 119 10066 
527 736.1 10054 132 10054 
528 736.65 9982 118 9982 
529 737.2 9938 137 9938 
530 737.75 9902 128 9902 
531 738.3 9875 139 9875 
532 738.86 9880 121 9880 
533 739.41 9819 139 9819 
534 739.96 9782 131 9782 
535 740.52 9753 137 9753 
536 741.07 9701 122 9701 
537 741.62 9628 143 9628 
538 742.17 9562 122 9562 
539 742.73 9540 134 9540 
540 743.28 9499 121 9499 
541 743.83 9438 136 9438 
542 744.39 9381 128 9381 
543 744.94 9367 139 9367 
544 745.49 9291 124 9291 
545 746.05 9270 128 9270 
546 746.6 9184 131 9184 
547 747.15 9126 134 9126 
548 747.71 9089 122 9089 
549 748.26 9035 131 9035 
550 748.81 8961 126 8961 
551 749.36 8881 131 8881 
552 749.92 8885 122 8885 
553 750.47 8800 147 8800 
554 751.02 8754 119 8754 
555 751.58 8697 142 8697 
556 752.13 8723 118 8723 
557 752.68 8669 138 8669 
558 753.23 8639 121 8639 
559 753.79 8588 143 8588 
560 754.34 8529 126 8529 
561 754.89 8476 139 8476 
562 755.44 8398 128 8398 
563 756 8346 137 8346 
564 756.55 8286 126 8286 
565 757.1 8221 135 8221 
566 757.65 8214 132 8214 
567 758.2 8142 141 8142 
568 758.75 8118 122 8118 
569 759.3 8094 136 8094 
570 759.85 8069 120 8069 
571 760.41 8030 138 8030 
572 760.96 7986 117 7986 
573 761.51 7921 134 7921 
574 762.06 7894 124 7894 
575 762.61 7839 146 7839 
576 763.16 7796 126 7796 
577 763.71 7764 138 7764 
578 764.26 7729 127 7729 
579 764.8 7687 140 7687 
580 765.35 7642 120 7642 
581 765.9 7567 136 7567 
582 766.45 7515 122 7515 
583 767 7473 136 7473 
584 767.55 7394 126 7394 
585 768.1 7398 134 7398 
586 768.64 7348 121 7348 
587 769.19 7296 138 7296 
588 769.74 7259 119 7259 
589 770.29 7265 140 7265 
590 770.83 7184 122 7184 
591 771.38 7117 147 7117 
592 771.93 7075 124 7075 
593 772.48 7030 140 7030 
594 773.02 6971 137 6971 
595 773.57 6961 144 6961 
596 774.12 6917 119 6917 
597 774.66 6917 140 6917 
598 775.21 6863 123 6863 
599 775.75 6818 143 6818 
600 776.3 6759 125 6759 
601 776.85 6743 137 6743 
602 777.39 6692 121 6692 
603 777.94 6605 139 6605 
604 778.48 6562 129 6562 
605 779.03 6520 136 6520 
606 779.58 6483 124 6483 
607 780.12 6477 150 6477 
608 780.67 6437 124 6437 
609 781.21 6413 134 6413 
610 781.76 6320 124 6320 
611 782.3 6321 143 6321 
612 782.85 6294 129 6294 
613 783.39 6223 149 6223 
614 783.94 6203 127 6203 
615 784.48 6144 143 6144 
616 785.02 6129 121 6129 
617 785.57 6081 143 6081 
618 786.11 6017 132 6017 
619 786.66 6011 135 6011 
620 787.2 5972 131 5972 
621 787.75 5917 142 5917 
622 788.29 5918 120 5918 
623 788.83 5893 141 5893 
624 789.38 5847 126 5847 
625 789.92 5855 147 5855 
626 790.47 5784 128 5784 
627 791.01 5735 134 5735 
628 791.56 5728 132 5728 
629 792.1 5649 146 5649 
630 792.64 5645 127 5645 
631 793.19 5633 140 5633 
632 793.73 5554 133 5554 
633 794.27 5550 146 5550 
634 794.82 5524 132 5524 
635 795.36 5473 146 5473 
636 795.91 5392 132 5392 
637 796.45 5401 142 5401 
638 796.99 5383 135 5383 
639 797.54 5341 143 5341 
640 798.08 5336 120 5336 
641 798.62 5267 151 5267 
642 799.17 5266 131 5266 
643 799.71 5222 143 5222 
644 800.26 5195 124 5195 
645 800.8 5198 149 5198 
646 801.34 5194 133 5194 
647 801.89 5132 139 5132 
648 802.43 5121 128 5121 
649 802.97 5096 150 5096 
650 803.52 5024 135 5024 
651 804.06 5049 140 5049 
652 804.61 4982 133 4982 
653 805.15 4926 150 4926 
654 805.69 4948 122 4948 
655 806.24 4921 142 4921 
656 806.78 4880 134 4880 
657 807.33 4847 139 4847 
658 807.87 4824 121 4824 
659 808.42 4823 141 4823 
660 808.96 4775 133 4775 
661 809.51 4751 138 4751 
662 810.05 4726 130 4726 
663 810.6 4700 145 4700 
664 811.14 4702 125 4702 
665 811.69 4670 135 4670 
666 812.23 4655 121 4655 
667 812.78 4612 138 4612 
668 813.32 4649 121 4649 
669 813.87 4584 139 4584 
670 814.41 4570 130 4570 
671 814.96 4565 141 4565 
672 815.5 4541 126 4541 
673 816.05 4496 150 4496 
674 816.6 4464 132 4464 
675 817.14 4459 138 4459 
676 817.69 4438 129 4438 
677 818.23 4415 137 4415 
678 818.78 4397 128 4397 
679 819.33 4382 133 4382 
680 819.88 4351 128 4351 
681 820.42 4328 147 4328 
682 820.97 4298 128 4298 
683 821.52 4295 148 4295 
684 822.06 4299 130 4299 
685 822.61 4272 145 4272 
686 823.16 4234 126 4234 
687 823.71 4214 137 4214 
688 824.26 4202 125 4202 
689 824.81 4186 145 4186 
690 825.35 4117 134 4117 
691 825.9 4084 139 4084 
692 826.45 4075 127 4075 
693 827 4026 148 4026 
694 827.55 4003 132 4003 
695 828.1 3981 144 3981 
696 828.65 3989 128 3989 
697 829.2 3993 149 3993 
698 829.75 3961 133 3961 
699 830.3 3946 145 3946 
700 830.85 3932 133 3932 
701 831.4 3926 140 3926 
702 831.96 3926 131 3926 
703 832.51 3907 151 3907 
704 833.06 3887 126 3887 
705 833.61 3886 141 3886 
706 834.16 3847 138 3847 
707 834.71 3838 143 3838 
708 835.26 3851 128 3851 
709 835.82 3830 133 3830 
710 836.37 3822 137 3822 
711 836.92 3817 143 3817 
712 837.47 3838 125 3838 
713 838.03 3838 146 3838 
714 838.58 3806 125 3806 
715 839.13 3804 148 3804 
716 839.68 3825 131 3825 
717 840.24 3822 146 3822 
718 840.79 3789 132 3789 
719 841.34 3773 150 3773 
720 841.89 3753 131 3753 
721 842.45 3756 139 3756 
722 843 3757 131 3757 
723 843.55 3750 141 3750 
724 844.11 3685 132 3685 
725 844.66 3755 152 3755 
726 845.21 3759 130 3759 
727 845.77 3726 146 3726 
728 846.32 3727 129 3727 
729 846.87 3701 142 3701 
730 847.43 3695 132 3695 
731 847.98 3678 148 3678 
732 848.53 3654 131 3654 
733 849.08 3651 140 3651 
734 849.64 3635 134 3635 
735 850.19 3670 138 3670 
736 850.74 3668 129 3668 
737 851.3 3646 144 3646 
738 851.85 3655 132 3655 
739 852.4 3641 144 3641 
740 852.95 3607 140 3607 
741 853.51 3598 147 3598 
742 854.06 3620 127 3620 
743 854.61 3616 141 3616 
744 855.16 3598 128 3598 
745 855.72 3578 140 3578 
746 856.27 3599 133 3599 
747 856.82 3560 139 3560 
748 857.37 3598 129 3598 
749 857.92 3579 138 3579 
750 858.48 3568 131 3568 
751 859.03 3536 149 3536 
752 859.58 3531 134 3531 
753 860.13 3542 148 3542 
754 860.68 3514 140 3514 
755 861.23 3519 140 3519 
756 861.78 3529 129 3529 
757 862.33 3498 141 3498 
758 862.89 3521 133 3521 
759 863.44 3506 144 3506 
760 863.99 3516 140 3516 
761 864.54 3503 147 3503 
762 865.09 3469 139 3469 
763 865.64 3487 146 3487 
764 866.18 3483 129 3483 
765 866.73 3480 157 3480 
766 867.28 3492 124 3492 
767 867.83 3435 147 3435 
768 868.38 3446 133 3446 
769 868.93 3435 143 3435 
770 869.48 3426 129 3426 
771 870.02 3438 134 3438 
772 870.57 3418 130 3418 
773 871.12 3397 148 3397 
774 871.67 3395 133 3395 
775 872.21 3372 150 3372 
776 872.76 3388 132 3388 
777 873.31 3380 138 3380 
778 873.85 3405 129 3405 
779 874.4 3385 143 3385 
780 874.94 3361 129 3361 
781 875.49 3361 146 3361 
782 876.03 3369 131 3369 
783 876.58 3377 139 3377 
784 877.12 3359 129 3359 
785 877.67 3359 148 3359 
786 878.21 3346 129 3346 
787 878.75 3341 138 3341 
788 879.3 3348 128 3348 
789 879.84 3329 144 3329 
790 880.39 3352 135 3352 
791 880.93 3363 137 3363 
792 881.47 3331 123 3331 
793 882.01 3329 141 3329 
794 882.56 3335 129 3335 
795 883.1 3322 140 3322 
796 883.64 3325 134 3325 
797 884.18 3310 148 3310 
798 884.73 3335 127 3335 
799 885.27 3342 139 3342 
800 885.81 3314 137 3314 
801 886.35 3303 143 3303 
802 886.89 3303 132 3303 
803 887.43 3285 146 3285 
804 887.98 3300 132 3300 
805 888.52 3288 151 3288 
806 889.06 3301 123 3301 
807 889.6 3316 140 3316 
808 890.14 3320 126 3320 
809 890.68 3299 154 3299 
810 891.22 3319 131 3319 
811 891.76 3274 150 3274 
812 892.3 3278 132 3278 
813 892.84 3268 148 3268 
814 893.38 3254 131 3254 
815 893.92 3286 149 3286 
816 894.46 3276 127 3276 
817 895 3248 151 3248 
818 895.54 3228 132 3228 
819 896.08 3220 144 3220 
820 896.62 3249 136 3249 
821 897.16 3233 150 3233 
822 897.7 3241 127 3241 
823 898.24 3247 140 3247 
824 898.78 3251 134 3251 
825 899.32 3224 142 3224 
826 899.86 3217 119 3217 
827 900.4 3219 146 3219 
828 900.94 3197 128 3197 
829 901.48 3175 144 3175 
830 902.02 3199 128 3199 
831 902.56 3170 152 3170 
832 903.1 3180 143 3180 
833 903.64 3181 145 3181 
834 904.18 3184 128 3184 
835 904.73 3162 145 3162 
836 905.27 3139 131 3139 
837 905.81 3131 145 3131 
838 906.35 3163 127 3163 
839 906.89 3153 135 3153 
840 907.43 3116 139 3116 
841 907.97 3101 151 3101 
842 908.51 3118 137 3118 
843 909.05 3117 149 3117 
844 909.59 3085 131 3085 
845 910.13 3094 150 3094 
846 910.67 3072 131 3072 
847 911.21 3065 150 3065 
848 911.76 3062 131 3062 
849 912.3 3077 136 3077 
850 912.84 3048 129 3048 
851 913.38 3055 141 3055 
852 913.92 3047 128 3047 
853 914.46 3028 152 3028 
854 915.01 3035 132 3035 
855 915.55 3023 149 3023 
856 916.09 3033 131 3033 
857 916.63 3041 154 3041 
858 917.18 3026 131 3026 
859 917.72 3012 149 3012 
860 918.26 3007 139 3007 
861 918.8 2995 143 2995 
862 919.35 2978 132 2978 
863 919.89 2989 143 2989 
864 920.43 2960 134 2960 
865 920.98 2988 146 2988 
866 921.52 2930 142 2930 
867 922.06 2950 152 2950 
868 922.61 2919 142 2919 
869 923.15 2905 149 2905 
870 923.7 2915 136 2915 
871 924.24 2913 152 2913 
872 924.78 2887 135 2887 
873 925.33 2883 149 2883 
874 925.87 2895 136 2895 
875 926.42 2869 143 2869 
876 926.96 2866 134 2866 
877 927.51 2864 142 2864 
878 928.05 2824 125 2824 
879 928.6 2802 142 2802 
880 929.14 2769 132 2769 
881 929.69 2789 150 2789 
882 930.23 2737 129 2737 
883 930.78 2714 151 2714 
884 931.32 2679 129 2679 
885 931.87 2663 144 2663 
886 932.41 2661 140 2661 
887 932.96 2601 141 2601 
888 933.5 2576 141 2576 
889 934.05 2550 145 2550 
890 934.59 2520 124 2520 
891 935.14 2494 147 2494 
892 935.68 2489 138 2489 
893 936.23 2404 147 2404 
894 936.78 2387 131 2387 
895 937.32 2384 142 2384 
896 937.87 2347 127 2347 
897 938.41 2330 150 2330 
898 938.96 2326 128 2326 
899 939.51 2330 141 2330 
900 940.05 2284 139 2284 
901 940.6 2312 148 2312 
902 941.15 2291 134 2291 
903 941.69 2288 152 2288 
904 942.24 2282 130 2282 
905 942.79 2270 151 2270 
906 943.33 2265 143 2265 
907 943.88 2303 142 2303 
908 944.43 2269 140 2269 
909 944.97 2306 149 2306 
910 945.52 2301 130 2301 
911 946.07 2276 151 2276 
912 946.61 2299 141 2299 
913 947.16 2324 146 2324 
914 947.71 2320 119 2320 
915 948.26 2300 160 2300 
916 948.8 2336 132 2336 
917 949.35 2353 145 2353 
918 949.9 2336 134 2336 
919 950.44 2355 139 2355 
920 950.99 2340 137 2340 
921 951.54 2342 142 2342 
922 952.09 2345 134 2345 
923 952.63 2337 156 2337 
924 953.18 2342 137 2342 
925 953.73 2335 155 2335 
926 954.28 2344 138 2344 
927 954.82 2316 150 2316 
928 955.37 2349 139 2349 
929 955.92 2347 148 2347 
930 956.47 2345 135 2345 
931 957.01 2351 154 2351 
932 957.56 2341 129 2341 
933 958.11 2322 145 2322 
934 958.66 2334 141 2334 
935 959.2 2299 153 2299 
936 959.75 2316 138 2316 
937 960.3 2302 148 2302 
938 960.85 2334 141 2334 
939 961.4 2313 153 2313 
940 961.94 2261 135 2261 
941 962.49 2287 150 2287 
942 963.04 2283 138 2283 
943 963.59 2302 151 2302 
944 964.13 2262 148 2262 
945 964.68 2266 148 2266 
946 965.23 2272 130 2272 
947 965.78 2273 152 2273 
948 966.33 2245 140 2245 
949 966.87 2274 149 2274 
950 967.42 2253 140 2253 
951 967.97 2239 150 2239 
952 968.52 2234 134 2234 
953 969.06 2205 151 2205 
954 969.61 2228 136 2228 
955 970.16 2187 155 2187 
956 970.71 2199 136 2199 
957 971.26 2184 150 2184 
958 971.8 2170 145 2170 
959 972.35 2197 146 2197 
960 972.9 2143 142 2143 
961 973.45 2180 149 2180 
962 974 2165 130 2165 
963 974.54 2127 155 2127 
964 975.09 2132 140 2132 
965 975.64 2156 143 2156 
966 976.19 2155 131 2155 
967 976.73 2086 146 2086 
968 977.28 2117 144 2117 
969 977.83 2092 145 2092 
970 978.38 2064 136 2064 
971 978.93 2072 153 2072 
972 979.47 2065 143 2065 
973 980.02 2058 150 2058 
974 980.57 2085 134 2085 
975 981.12 2035 152 2035 
976 981.66 2017 131 2017 
977 982.21 2007 148 2007 
978 982.76 1997 136 1997 
979 983.31 2012 151 2012 
980 983.86 2000 135 2000 
981 984.4 1969 150 1969 
982 984.95 2012 134 2012 
983 985.5 1973 156 1973 
984 986.05 1967 137 1967 
985 986.59 1959 153 1959 
986 987.14 1969 136 1969 
987 987.69 1954 148 1954 
988 988.24 1958 132 1958 
989 988.79 1910 148 1910 
990 989.33 1938 136 1938 
991 989.88 1935 147 1935 
992 990.43 1894 138 1894 
993 990.98 1930 151 1930 
994 991.52 1884 143 1884 
995 992.07 1898 146 1898 
996 992.62 1863 145 1863 
997 993.17 1869 152 1869 
998 993.72 1846 148 1846 
999 994.26 1836 153 1836 
1000 994.81 1852 142 1852 
1001 995.36 1823 160 1823 
1002 995.91 1823 142 1823 
1003 996.46 1817 148 1817 
1004 997 1810 135 1810 
1005 997.55 1811 155 1811 
1006 998.1 1804 127 1804 
1007 998.65 1778 156 1778 
1008 999.19 1749 136 1749 
1009 999.74 1783 152 1783 
1010 1000.29 1759 147 1759 
1011 1000.84 1737 146 1737 
1012 1001.39 1729 144 1729 
1013 1001.93 1711 154 1711 
1014 1002.48 1718 141 1718 
1015 1003.03 1721 152 1721 
1016 1003.58 1718 134 1718 
1017 1004.12 1712 149 1712 
1018 1004.67 1711 136 1711 
1019 1005.22 1690 153 1690 
1020 1005.77 1673 135 1673 
1021 1006.32 1674 153 1674 
1022 1006.86 1660 147 1660 
1023 1007.41 1673 154 1673 

Created by=CCD-Array Toolkit
Creation Date & Time=02.04.2019 16:53:58
Total number of channels=1024
Calibration Type=2
Number of points=15
Channel1=85
Wavelength1=491.607
Channel2=113
Wavelength2=507.304
Channel3=183
Wavelength3=546.073
Channel4=239
Wavelength4=576.96
Channel5=269
Wavelength5=593.456
Channel6=288
Wavelength6=604.3
Channel7=404
Wavelength7=668.296
Channel8=455
Wavelength8=696.543
Channel9=516
Wavelength9=730.0306
Channel10=572
Wavelength10=760.956
Channel11=634
Wavelength11=794.818
Channel12=692
Wavelength12=826.453
Channel13=774
Wavelength13=871.666
Channel14=849
Wavelength14=912.297
Channel15=947
Wavelength15=965.778
RxCheckListBox1.Items.Count=0
Correct=0

